File: example/supycap.mpt
EC-Lab ASCII FILE
Nb header lines : 57

Constant Current

Run on channel : 4 (SN 2072)
User :
Electrode connection : standard
Ewe ctrl range : min = -10.00 V, max = 10.00 V
Ewe,I filtering : <None>
Safety Limits :
	Do not start on E overload
Channel : Floating
Acquisition started on : 03/22/2019 14:52:49
Saved on :
	File : 20190322_M20_LE_3rd_02_CstC.mpr
	Directory : C:\Users\U HYeok Choi\Documents\EC-Lab\Data\JYC\2019\0322 M20_LE 3rd\
	Host : 192.109.209.120
Device : VSP-300 (SN 0162)
Address : 192.109.209.128
EC-Lab for windows v11.20 (software)
Internet server v11.20 (firmware)
Command interpretor v11.20 (firmware)
Electrode material : Au/Pd
Initial state :
Electrolyte : NaCl (0.2M)
Comments : Fe(CN)63-/Fe(CN)64- 5.10-3 M
Cable : standard
Reference electrode : SCE Saturated Calomel Electrode (0.241 V)
Electrode surface area : 0.001 cm2
Characteristic mass : 0.001 g
Equivalent Weight : 0.000 g/eq.
Density : 0.000 g/cm3
Cycle Definition : Charge/Discharge alternance
Ns                  0                   1
tR (h:m:s)          0:00:0.0000         0:00:0.0000
dER/dt (mV/h)       2.0                 2.0
dER (mV)            0.00                0.00
dtR (s)             1.0000              1.0000
Is                  120.000             -120.000
unit Is             uA                  uA
vs.                 <None>              <None>
ts (h:m:s)          7:07:0.0000         7:07:0.0000
EM (V)              1.000               0.000
dQM                 854.000             854.000
unit dQM            uA.h                uA.h
record              <Ewe>               <Ewe>
dEs (mV)            0.00                0.00
dts (s)             0.1000              0.1000
E range min (V)     -10.000             -10.000
E range max (V)     10.000              10.000
I Range             10 mA               10 mA
Bandwidth           8                   8
goto Ns'            0                   0
nc cycles           3                   3

mode	ox/red	error	control changes	Ns changes	counter inc.	time/s	control/mA	<Ewe>/V	I/mA	dq/mA.h	dQ/mA.h	(Q-Qo)/mA.h	Q charge/discharge/mA.h	half cycle	Energy charge/W.h	Energy discharge/W.h	Capacitance charge/uF	Capacitance discharge/uF	Q discharge/mA.h	Q charge/mA.h	Capacity/mA.h	Efficiency/%	cycle number	P/W
1	1	0	1	0	0	1019.88	0.12	0.0311824	0.124456	9.24318e-09	1.44388e-08	1.44388e-08	9.24318e-09	0	2.88225e-13	0.000000000000000E+000	0.000000000000000E+000	0.000000000000000E+000	0.000000000000000E+000	9.24318e-09	9.24318e-09	0.0000000E+000	0.000000000000000E+000	3.88085e-06
1	1	0	1	0	0	1021.78	0.12	0.096011	0.122853	3.44701e-06	6.55193e-05	6.55193e-05	6.55142e-05	0	4.55557e-09	0.000000000000000E+000	3638.07	0.000000000000000E+000	0.000000000000000E+000	6.55142e-05	6.55142e-05	0.0000000E+000	0.000000000000000E+000	1.17953e-05
1	1	0	1	0	0	1023.68	0.12	0.143874	0.12354	3.44507e-06	0.000130987	0.000130987	0.000130982	0	1.25181e-08	0.000000000000000E+000	4184.31	0.000000000000000E+000	0.000000000000000E+000	0.000130982	0.000130982	0.0000000E+000	0.000000000000000E+000	1.77742e-05
1	1	0	1	0	0	1025.58	0.12	0.188038	0.124533	3.44399e-06	0.000196427	0.000196427	0.000196421	0	2.34687e-08	0.000000000000000E+000	4508.08	0.000000000000000E+000	0.000000000000000E+000	0.000196421	0.000196421	0.0000000E+000	0.000000000000000E+000	2.34168e-05
1	1	0	1	0	0	1027.48	0.12	0.229901	0.124647	3.44741e-06	0.000261893	0.000261893	0.000261888	0	3.72325e-08	0.000000000000000E+000	4744.37	0.000000000000000E+000	0.000000000000000E+000	0.000261888	0.000261888	0.0000000E+000	0.000000000000000E+000	2.86565e-05
1	1	0	1	0	0	1029.38	0.12	0.270076	0.124494	3.44778e-06	0.000327393	0.000327393	0.000327388	0	5.36837e-08	0.000000000000000E+000	4933.57	0.000000000000000E+000	0.000000000000000E+000	0.000327388	0.000327388	0.0000000E+000	0.000000000000000E+000	3.36229e-05
1	1	0	1	0	0	1031.28	0.12	0.309334	0.124342	3.44648e-06	0.000392885	0.000392885	0.000392879	0	7.27275e-08	0.000000000000000E+000	5084.88	0.000000000000000E+000	0.000000000000000E+000	0.000392879	0.000392879	0.0000000E+000	0.000000000000000E+000	3.84631e-05
1	1	0	1	0	0	1033.18	0.12	0.348439	0.123769	3.44803e-06	0.000458409	0.000458409	0.000458404	0	9.43446e-08	0.000000000000000E+000	5201.64	0.000000000000000E+000	0.000000000000000E+000	0.000458404	0.000458404	0.0000000E+000	0.000000000000000E+000	4.3126e-05
1	1	0	1	0	0	1035.08	0.12	0.38774	0.123464	3.44625e-06	0.000523929	0.000523929	0.000523924	0	1.18529e-07	0.000000000000000E+000	5289.82	0.000000000000000E+000	0.000000000000000E+000	0.000523924	0.000523924	0.0000000E+000	0.000000000000000E+000	4.78719e-05
1	1	0	1	0	0	1036.98	0.12	0.427292	0.124151	3.44742e-06	0.000589434	0.000589434	0.000589429	0	1.4529e-07	0.000000000000000E+000	5356.97	0.000000000000000E+000	0.000000000000000E+000	0.000589429	0.000589429	0.0000000E+000	0.000000000000000E+000	5.30486e-05
1	1	0	1	0	0	1038.88	0.12	0.466982	0.123578	3.44889e-06	0.000654965	0.000654965	0.00065496	0	1.7466e-07	0.000000000000000E+000	5410.41	0.000000000000000E+000	0.000000000000000E+000	0.00065496	0.00065496	0.0000000E+000	0.000000000000000E+000	5.77089e-05
1	1	0	1	0	0	1040.78	0.12	0.506697	0.123922	3.44992e-06	0.000720472	0.000720472	0.000720467	0	2.0662e-07	0.000000000000000E+000	5454.47	0.000000000000000E+000	0.000000000000000E+000	0.000720467	0.000720467	0.0000000E+000	0.000000000000000E+000	6.27908e-05
1	1	0	1	0	0	1042.68	0.12	0.546414	0.123731	3.44795e-06	0.000786007	0.000786007	0.000786002	0	2.41197e-07	0.000000000000000E+000	5491.91	0.000000000000000E+000	0.000000000000000E+000	0.000786002	0.000786002	0.0000000E+000	0.000000000000000E+000	6.76084e-05
1	1	0	1	0	0	1044.58	0.12	0.586048	0.12396	3.44877e-06	0.000851519	0.000851519	0.000851514	0	2.78361e-07	0.000000000000000E+000	5524.67	0.000000000000000E+000	0.000000000000000E+000	0.000851514	0.000851514	0.0000000E+000	0.000000000000000E+000	7.26466e-05
1	1	0	1	0	0	1046.48	0.12	0.625525	0.124876	3.45165e-06	0.000917066	0.000917066	0.000917061	0	3.18138e-07	0.000000000000000E+000	5554.74	0.000000000000000E+000	0.000000000000000E+000	0.000917061	0.000917061	0.0000000E+000	0.000000000000000E+000	7.81131e-05
1	1	0	1	0	0	1048.38	0.12	0.664685	0.124571	3.44809e-06	0.000982616	0.000982616	0.000982611	0	3.60494e-07	0.000000000000000E+000	5583.87	0.000000000000000E+000	0.000000000000000E+000	0.000982611	0.000982611	0.0000000E+000	0.000000000000000E+000	8.28003e-05
1	1	0	1	0	0	1050.28	0.12	0.703413	0.124113	3.44995e-06	0.00104815	0.00104815	0.00104815	0	4.05394e-07	0.000000000000000E+000	5613.15	0.000000000000000E+000	0.000000000000000E+000	0.00104815	0.00104815	0.0000000E+000	0.000000000000000E+000	8.73025e-05
1	1	0	1	0	0	1052.18	0.12	0.74161	0.123731	3.4508e-06	0.00111372	0.00111372	0.00111371	0	4.52835e-07	0.000000000000000E+000	5643.6	0.000000000000000E+000	0.000000000000000E+000	0.00111371	0.00111371	0.0000000E+000	0.000000000000000E+000	9.17602e-05
1	1	0	1	0	0	1054.08	0.12	0.779124	0.12396	3.44853e-06	0.00117929	0.00117929	0.00117928	0	5.0276e-07	0.000000000000000E+000	5676.13	0.000000000000000E+000	0.000000000000000E+000	0.00117928	0.00117928	0.0000000E+000	0.000000000000000E+000	9.65803e-05
1	1	0	1	0	0	1055.98	0.12	0.815809	0.123922	3.4485e-06	0.00124483	0.00124483	0.00124483	0	5.55098e-07	0.000000000000000E+000	5711.47	0.000000000000000E+000	0.000000000000000E+000	0.00124483	0.00124483	0.0000000E+000	0.000000000000000E+000	0.000101097
1	1	0	1	0	0	1057.88	0.12	0.851421	0.123846	3.44954e-06	0.00131037	0.00131037	0.00131036	0	6.09801e-07	0.000000000000000E+000	5751.15	0.000000000000000E+000	0.000000000000000E+000	0.00131036	0.00131036	0.0000000E+000	0.000000000000000E+000	0.000105445
1	1	0	1	0	0	1059.78	0.12	0.885771	0.124418	3.45174e-06	0.00137594	0.00137594	0.00137593	0	6.6682e-07	0.000000000000000E+000	5796.19	0.000000000000000E+000	0.000000000000000E+000	0.00137593	0.00137593	0.0000000E+000	0.000000000000000E+000	0.000110206
1	1	0	1	0	0	1061.68	0.12	0.918491	0.123884	3.45014e-06	0.0014415	0.0014415	0.0014415	0	7.26034e-07	0.000000000000000E+000	5848.46	0.000000000000000E+000	0.000000000000000E+000	0.0014415	0.0014415	0.0000000E+000	0.000000000000000E+000	0.000113786
1	1	0	1	0	0	1063.58	0.12	0.94922	0.124036	3.44786e-06	0.00150705	0.00150705	0.00150705	0	7.87312e-07	0.000000000000000E+000	5909.74	0.000000000000000E+000	0.000000000000000E+000	0.00150705	0.00150705	0.0000000E+000	0.000000000000000E+000	0.000117738
1	1	0	1	0	0	1065.48	0.12	0.977578	0.124914	3.44755e-06	0.00157257	0.00157257	0.00157257	0	8.50496e-07	0.000000000000000E+000	5981.89	0.000000000000000E+000	0.000000000000000E+000	0.00157257	0.00157257	0.0000000E+000	0.000000000000000E+000	0.000122113
1	0	0	0	0	0	1067.27	-0.12	0.982744	-0.115217	-3.21121e-06	-6.41527e-06	0.00162102	-6.41527e-06	1	9.04777e-07	-6.32876e-09	6051.33	4365.02	6.41527e-06	0.000000000000000E+000	6.41527e-06	0.0000000E+000	0.000000000000000E+000	-0.000113229
1	0	0	0	0	0	1069.17	-0.12	0.92693	-0.115866	-3.20817e-06	-6.74001e-05	0.00156003	-6.74001e-05	1	9.04777e-07	-6.43654e-08	6051.33	3970.9	6.74001e-05	0.000000000000000E+000	6.74001e-05	0.0000000E+000	0.000000000000000E+000	-0.0001074
1	0	0	0	0	0	1071.07	-0.12	0.880262	-0.115446	-3.20889e-06	-0.000128372	0.00149906	-0.000128372	1	9.04777e-07	-1.19366e-07	6051.33	4288.07	0.000128372	0.000000000000000E+000	0.000128372	0.0000000E+000	0.000000000000000E+000	-0.000101623
1	0	0	0	0	0	1072.97	-0.12	0.836192	-0.11579	-3.20854e-06	-0.000189352	0.00143808	-0.000189352	1	9.04777e-07	-1.7162e-07	6051.33	4489.26	0.000189352	0.000000000000000E+000	0.000189352	0.0000000E+000	0.000000000000000E+000	-9.68222e-05
1	0	0	0	0	0	1074.87	-0.12	0.793544	-0.115064	-3.20976e-06	-0.00025033	0.0013771	-0.00025033	1	9.04777e-07	-2.21235e-07	6051.33	4633.56	0.00025033	0.000000000000000E+000	0.00025033	0.0000000E+000	0.000000000000000E+000	-9.13087e-05
1	0	0	0	0	0	1076.77	-0.12	0.751977	-0.115179	-3.20835e-06	-0.000311294	0.00131614	-0.000311294	1	9.04777e-07	-2.68274e-07	6051.33	4747.37	0.000311294	0.000000000000000E+000	0.000311294	0.0000000E+000	0.000000000000000E+000	-8.66119e-05
1	0	0	0	0	0	1078.67	-0.12	0.71127	-0.115332	-3.20934e-06	-0.000372261	0.00125517	-0.000372261	1	9.04777e-07	-3.12809e-07	6051.33	4842.14	0.000372261	0.000000000000000E+000	0.000372261	0.0000000E+000	0.000000000000000E+000	-8.20318e-05
1	0	0	0	0	0	1080.57	-0.12	0.671339	-0.116019	-3.20867e-06	-0.000433263	0.00119417	-0.000433263	1	9.04777e-07	-3.54912e-07	6051.33	4925.04	0.000433263	0.000000000000000E+000	0.000433263	0.0000000E+000	0.000000000000000E+000	-7.78878e-05
1	0	0	0	0	0	1082.47	-0.12	0.632136	-0.115866	-3.21027e-06	-0.000494241	0.00113319	-0.000494241	1	9.04777e-07	-3.94587e-07	6051.33	4999.35	0.000494241	0.000000000000000E+000	0.000494241	0.0000000E+000	0.000000000000000E+000	-7.3243e-05
1	0	0	0	0	0	1084.37	-0.12	0.593606	-0.116133	-3.2121e-06	-0.000555242	0.00107219	-0.000555242	1	9.04777e-07	-4.31907e-07	6051.33	5067.74	0.000555242	0.000000000000000E+000	0.000555242	0.0000000E+000	0.000000000000000E+000	-6.89372e-05
1	0	0	0	0	0	1086.27	-0.12	0.555767	-0.115446	-3.21053e-06	-0.000616229	0.0010112	-0.000616229	1	9.04777e-07	-4.66892e-07	6051.33	5132.05	0.000616229	0.000000000000000E+000	0.000616229	0.0000000E+000	0.000000000000000E+000	-6.41611e-05
1	0	0	0	0	0	1088.17	-0.12	0.518632	-0.114797	-3.20769e-06	-0.000677183	0.00095025	-0.000677183	1	9.04777e-07	-4.99573e-07	6051.33	5193.51	0.000677183	0.000000000000000E+000	0.000677183	0.0000000E+000	0.000000000000000E+000	-5.95375e-05
1	0	0	0	0	0	1090.07	-0.12	0.48217	-0.11537	-3.20849e-06	-0.000738128	0.000889305	-0.000738128	1	9.04777e-07	-5.30008e-07	6051.33	5252.89	0.000738128	0.000000000000000E+000	0.000738128	0.0000000E+000	0.000000000000000E+000	-5.56278e-05
1	0	0	0	0	0	1091.97	-0.12	0.446371	-0.115522	-3.20927e-06	-0.000799089	0.000828343	-0.000799089	1	9.04777e-07	-5.5825e-07	6051.33	5310.88	0.000799089	0.000000000000000E+000	0.000799089	0.0000000E+000	0.000000000000000E+000	-5.15658e-05
1	0	0	0	0	0	1093.87	-0.12	0.41121	-0.115179	-3.20789e-06	-0.000860047	0.000767386	-0.000860047	1	9.04777e-07	-5.84328e-07	6051.33	5367.59	0.000860047	0.000000000000000E+000	0.000860047	0.0000000E+000	0.000000000000000E+000	-4.73628e-05
1	0	0	0	0	0	1095.77	-0.12	0.376712	-0.115141	-3.20872e-06	-0.000920999	0.000706433	-0.000920999	1	9.04777e-07	-6.08282e-07	6051.33	5423.63	0.000920999	0.000000000000000E+000	0.000920999	0.0000000E+000	0.000000000000000E+000	-4.33749e-05
1	0	0	0	0	0	1097.67	-0.12	0.342921	-0.115332	-3.20875e-06	-0.00098196	0.000645473	-0.00098196	1	9.04777e-07	-6.30159e-07	6051.33	5479.72	0.00098196	0.000000000000000E+000	0.00098196	0.0000000E+000	0.000000000000000E+000	-3.95496e-05
1	0	0	0	0	0	1099.57	-0.12	0.30991	-0.115599	-3.20743e-06	-0.00104294	0.000584492	-0.00104294	1	9.04777e-07	-6.50007e-07	6051.33	5536.71	0.00104294	0.000000000000000E+000	0.00104294	0.0000000E+000	0.000000000000000E+000	-3.58252e-05
1	0	0	0	0	0	1101.47	-0.12	0.277615	-0.115408	-3.20902e-06	-0.0011039	0.000523532	-0.0011039	1	9.04777e-07	-6.6786e-07	6051.33	5593.92	0.0011039	0.000000000000000E+000	0.0011039	0.0000000E+000	0.000000000000000E+000	-3.20389e-05
1	0	0	0	0	0	1103.37	-0.12	0.245784	-0.115713	-3.20782e-06	-0.00116485	0.000462581	-0.00116485	1	9.04777e-07	-6.83758e-07	6051.33	5649.65	0.00116485	0.000000000000000E+000	0.00116485	0.0000000E+000	0.000000000000000E+000	-2.84405e-05
1	0	0	0	0	0	1105.27	-0.12	0.214109	-0.115713	-3.21014e-06	-0.00122581	0.000401619	-0.00122581	1	9.04777e-07	-6.97726e-07	6051.33	5701.99	0.00122581	0.000000000000000E+000	0.00122581	0.0000000E+000	0.000000000000000E+000	-2.47753e-05
1	0	0	0	0	0	1107.17	-0.12	0.18235	-0.116171	-3.20897e-06	-0.00128679	0.000340641	-0.00128679	1	9.04777e-07	-7.09763e-07	6051.33	5749.69	0.00128679	0.000000000000000E+000	0.00128679	0.0000000E+000	0.000000000000000E+000	-2.11839e-05
1	0	0	0	0	0	1109.07	-0.12	0.150517	-0.115942	-3.20877e-06	-0.00134777	0.000279661	-0.00134777	1	9.04777e-07	-7.19861e-07	6051.33	5793.27	0.00134777	0.000000000000000E+000	0.00134777	0.0000000E+000	0.000000000000000E+000	-1.74512e-05
1	0	0	0	0	0	1110.97	-0.12	0.118674	-0.115179	-3.20769e-06	-0.00140875	0.000218687	-0.00140875	1	9.04777e-07	-7.28016e-07	6051.33	5833.57	0.00140875	0.000000000000000E+000	0.00140875	0.0000000E+000	0.000000000000000E+000	-1.36688e-05
1	0	0	0	0	0	1112.87	-0.12	0.0869726	-0.115179	-3.21051e-06	-0.00146972	0.00015771	-0.00146972	1	9.04777e-07	-7.34234e-07	6051.33	5871.95	0.00146972	0.000000000000000E+000	0.00146972	0.0000000E+000	0.000000000000000E+000	-1.00174e-05
1	0	0	0	0	0	1114.77	-0.12	0.0555323	-0.115713	-3.21152e-06	-0.00153072	9.67099e-05	-0.00153072	1	9.04777e-07	-7.38529e-07	6051.33	5909.46	0.00153072	0.000000000000000E+000	0.00153072	0.0000000E+000	0.000000000000000E+000	-6.42582e-06
1	0	0	0	0	0	1116.67	-0.12	0.0245063	-0.114912	-3.21186e-06	-0.00159174	3.56905e-05	-0.00159174	1	9.04777e-07	-7.40918e-07	6051.33	5947.16	0.00159174	0.000000000000000E+000	0.00159174	0.0000000E+000	0.000000000000000E+000	-2.81606e-06
1	1	0	1	0	1	1118.45	0.12	0.0192841	0.123807	3.44975e-06	1.03532e-05	-1.24008e-06	1.03532e-05	2	1.61116e-10	0.000000000000000E+000	2004.4	0.000000000000000E+000	0.000000000000000E+000	1.03532e-05	1.03532e-05	0.0000000E+000	1	2.38751e-06
1	1	0	1	0	1	1120.35	0.12	0.0684215	0.124151	3.4464e-06	7.58644e-05	6.42711e-05	7.58644e-05	2	3.1724e-09	0.000000000000000E+000	4032.23	0.000000000000000E+000	0.000000000000000E+000	7.58644e-05	7.58644e-05	0.0000000E+000	1	8.49459e-06
1	1	0	1	0	1	1122.25	0.12	0.112833	0.124036	3.44733e-06	0.00014136	0.000129766	0.00014136	2	9.19692e-09	0.000000000000000E+000	4537.87	0.000000000000000E+000	0.000000000000000E+000	0.00014136	0.00014136	0.0000000E+000	1	1.39954e-05
1	1	0	1	0	1	1124.15	0.12	0.15545	0.124265	3.44975e-06	0.000206917	0.000195324	0.000206917	2	1.80728e-08	0.000000000000000E+000	4813.25	0.000000000000000E+000	0.000000000000000E+000	0.000206917	0.000206917	0.0000000E+000	1	1.93171e-05
1	1	0	1	0	1	1126.05	0.12	0.196629	0.124838	3.45106e-06	0.000272479	0.000260885	0.000272479	2	2.96926e-08	0.000000000000000E+000	5006.25	0.000000000000000E+000	0.000000000000000E+000	0.000272479	0.000272479	0.0000000E+000	1	2.45467e-05
1	1	0	1	0	1	1127.95	0.12	0.236445	0.124189	3.44909e-06	0.000338004	0.000326411	0.000338004	2	4.39569e-08	0.000000000000000E+000	5161.34	0.000000000000000E+000	0.000000000000000E+000	0.000338004	0.000338004	0.0000000E+000	1	2.93639e-05
1	1	0	1	0	1	1129.85	0.12	0.27515	0.1248	3.45027e-06	0.000403545	0.000391951	0.000403545	2	6.07935e-08	0.000000000000000E+000	5293.14	0.000000000000000E+000	0.000000000000000E+000	0.000403545	0.000403545	0.0000000E+000	1	3.43386e-05
1	1	0	1	0	1	1131.75	0.12	0.313294	0.123578	3.45008e-06	0.000469097	0.000457504	0.000469097	2	8.01473e-08	0.000000000000000E+000	5402.2	0.000000000000000E+000	0.000000000000000E+000	0.000469097	0.000469097	0.0000000E+000	1	3.87163e-05
1	1	0	1	0	1	1133.65	0.12	0.351436	0.124036	3.45083e-06	0.000534646	0.000523053	0.000534646	2	1.01998e-07	0.000000000000000E+000	5487.52	0.000000000000000E+000	0.000000000000000E+000	0.000534646	0.000534646	0.0000000E+000	1	4.35908e-05
1	1	0	1	0	1	1135.55	0.12	0.389856	0.124494	3.45008e-06	0.000600208	0.000588614	0.000600208	2	1.26363e-07	0.000000000000000E+000	5552.24	0.000000000000000E+000	0.000000000000000E+000	0.000600208	0.000600208	0.0000000E+000	1	4.85349e-05
1	1	0	1	0	1	1137.45	0.12	0.428542	0.123922	3.45122e-06	0.000665769	0.000654176	0.000665769	2	1.53257e-07	0.000000000000000E+000	5601.86	0.000000000000000E+000	0.000000000000000E+000	0.000665769	0.000665769	0.0000000E+000	1	5.31057e-05
1	1	0	1	0	1	1139.35	0.12	0.46736	0.124113	3.45007e-06	0.000731351	0.000719757	0.000731351	2	1.82701e-07	0.000000000000000E+000	5641.8	0.000000000000000E+000	0.000000000000000E+000	0.000731351	0.000731351	0.0000000E+000	1	5.80053e-05
1	1	0	1	0	1	1141.25	0.12	0.506238	0.123731	3.45395e-06	0.000796932	0.000785338	0.000796932	2	2.14693e-07	0.000000000000000E+000	5674.93	0.000000000000000E+000	0.000000000000000E+000	0.000796932	0.000796932	0.0000000E+000	1	6.26373e-05
1	1	0	1	0	1	1143.15	0.12	0.545108	0.124189	3.45305e-06	0.000862536	0.000850943	0.000862536	2	2.49247e-07	0.000000000000000E+000	5703.57	0.000000000000000E+000	0.000000000000000E+000	0.000862536	0.000862536	0.0000000E+000	1	6.76964e-05
1	1	0	1	0	1	1145.05	0.12	0.583901	0.124533	3.45232e-06	0.000928117	0.000916524	0.000928117	2	2.86336e-07	0.000000000000000E+000	5729	0.000000000000000E+000	0.000000000000000E+000	0.000928117	0.000928117	0.0000000E+000	1	7.27147e-05
1	1	0	1	0	1	1146.95	0.12	0.62248	0.124075	3.44907e-06	0.000993675	0.000982082	0.000993675	2	3.25948e-07	0.000000000000000E+000	5753.12	0.000000000000000E+000	0.000000000000000E+000	0.000993675	0.000993675	0.0000000E+000	1	7.72339e-05
1	1	0	1	0	1	1148.85	0.12	0.660766	0.123731	3.45e-06	0.00105923	0.00104764	0.00105923	2	3.68078e-07	0.000000000000000E+000	5776.95	0.000000000000000E+000	0.000000000000000E+000	0.00105923	0.00105923	0.0000000E+000	1	8.17572e-05
1	1	0	1	0	1	1150.75	0.12	0.698634	0.124265	3.45079e-06	0.00112478	0.00111319	0.00112478	2	4.127e-07	0.000000000000000E+000	5801.62	0.000000000000000E+000	0.000000000000000E+000	0.00112478	0.00112478	0.0000000E+000	1	8.6816e-05
1	1	0	1	0	1	1152.65	0.12	0.735986	0.124075	3.44812e-06	0.00119033	0.00117873	0.00119033	2	4.59783e-07	0.000000000000000E+000	5827.81	0.000000000000000E+000	0.000000000000000E+000	0.00119033	0.00119033	0.0000000E+000	1	9.13171e-05
1	1	0	1	0	1	1154.55	0.12	0.772713	0.123617	3.45039e-06	0.00125585	0.00124425	0.00125585	2	5.09277e-07	0.000000000000000E+000	5856.11	0.000000000000000E+000	0.000000000000000E+000	0.00125585	0.00125585	0.0000000E+000	1	9.55201e-05
1	1	0	1	0	1	1156.45	0.12	0.808685	0.123998	3.44642e-06	0.00132139	0.0013098	0.00132139	2	5.61167e-07	0.000000000000000E+000	5887.41	0.000000000000000E+000	0.000000000000000E+000	0.00132139	0.00132139	0.0000000E+000	1	0.000100275
1	1	0	1	0	1	1158.35	0.12	0.843752	0.123731	3.44869e-06	0.00138693	0.00137534	0.00138693	2	6.15386e-07	0.000000000000000E+000	5922.4	0.000000000000000E+000	0.000000000000000E+000	0.00138693	0.00138693	0.0000000E+000	1	0.000104398
1	1	0	1	0	1	1160.25	0.12	0.877713	0.124914	3.45097e-06	0.00145251	0.00144091	0.00145251	2	6.71894e-07	0.000000000000000E+000	5962.24	0.000000000000000E+000	0.000000000000000E+000	0.00145251	0.00145251	0.0000000E+000	1	0.000109639
1	1	0	1	0	1	1162.15	0.12	0.910315	0.12438	3.45197e-06	0.00151809	0.0015065	0.00151809	2	7.3059e-07	0.000000000000000E+000	6008.1	0.000000000000000E+000	0.000000000000000E+000	0.00151809	0.00151809	0.0000000E+000	1	0.000113225
1	1	0	1	0	1	1164.05	0.12	0.941238	0.124189	3.45212e-06	0.00158368	0.00157209	0.00158368	2	7.91376e-07	0.000000000000000E+000	6061.62	0.000000000000000E+000	0.000000000000000E+000	0.00158368	0.00158368	0.0000000E+000	1	0.000116891
1	1	0	1	0	1	1165.95	0.12	0.970151	0.124036	3.45125e-06	0.00164926	0.00163767	0.00164926	2	8.54114e-07	0.000000000000000E+000	6124.37	0.000000000000000E+000	0.000000000000000E+000	0.00164926	0.00164926	0.0000000E+000	1	0.000120334
1	1	0	1	0	1	1167.85	0.12	0.996693	0.123769	3.45014e-06	0.00171482	0.00170323	0.00171482	2	9.18649e-07	0.000000000000000E+000	6198.14	0.000000000000000E+000	0.000000000000000E+000	0.00171482	0.00171482	0.0000000E+000	1	0.00012336
1	0	0	0	0	1	1169.64	-0.12	0.940096	-0.115446	-3.20918e-06	-5.13449e-05	0.00165868	-5.13449e-05	3	9.25441e-07	-4.94016e-08	6206.34	3853.81	5.13449e-05	0.000000000000000E+000	5.13449e-05	0.0000000E+000	1	-0.00010853
1	0	0	0	0	1	1171.54	-0.12	0.892222	-0.11598	-3.20816e-06	-0.0001123	0.00159773	-0.0001123	3	9.25441e-07	-1.05144e-07	6206.34	4218.36	0.0001123	0.000000000000000E+000	0.0001123	0.0000000E+000	1	-0.00010348
1	0	0	0	0	1	1173.44	-0.12	0.847587	-0.115866	-3.20881e-06	-0.000173251	0.00153677	-0.000173251	3	9.25441e-07	-1.58083e-07	6206.34	4440	0.000173251	0.000000000000000E+000	0.000173251	0.0000000E+000	1	-9.82064e-05
1	0	0	0	0	1	1175.34	-0.12	0.804596	-0.115217	-3.20921e-06	-0.00023423	0.0014758	-0.00023423	3	9.25441e-07	-2.08382e-07	6206.34	4596.14	0.00023423	0.000000000000000E+000	0.00023423	0.0000000E+000	1	-9.27032e-05
1	0	0	0	0	1	1177.24	-0.12	0.762712	-0.115064	-3.21066e-06	-0.000295227	0.0014148	-0.000295227	3	9.25441e-07	-2.5611e-07	6206.34	4716.31	0.000295227	0.000000000000000E+000	0.000295227	0.0000000E+000	1	-8.7761e-05
1	0	0	0	0	1	1179.14	-0.12	0.721726	-0.114912	-3.21022e-06	-0.00035623	0.0013538	-0.00035623	3	9.25441e-07	-3.01317e-07	6206.34	4815.1	0.00035623	0.000000000000000E+000	0.00035623	0.0000000E+000	1	-8.29348e-05
1	0	0	0	0	1	1181.04	-0.12	0.681617	-0.116019	-3.20578e-06	-0.000417171	0.00129285	-0.000417171	3	9.25441e-07	-3.4401e-07	6206.34	4900.79	0.000417171	0.000000000000000E+000	0.000417171	0.0000000E+000	1	-7.90802e-05
1	0	0	0	0	1	1182.94	-0.12	0.642228	-0.115713	-3.20848e-06	-0.000478101	0.00123192	-0.000478101	3	9.25441e-07	-3.84274e-07	6206.34	4976.86	0.000478101	0.000000000000000E+000	0.000478101	0.0000000E+000	1	-7.43142e-05
1	0	0	0	0	1	1184.84	-0.12	0.603508	-0.115484	-3.20921e-06	-0.000539062	0.00117096	-0.000539062	3	9.25441e-07	-4.22179e-07	6206.34	5046.43	0.000539062	0.000000000000000E+000	0.000539062	0.0000000E+000	1	-6.96956e-05
1	0	0	0	0	1	1186.74	-0.12	0.565483	-0.115675	-3.20883e-06	-0.000600029	0.00111	-0.000600029	3	9.25441e-07	-4.5775e-07	6206.34	5111.72	0.000600029	0.000000000000000E+000	0.000600029	0.0000000E+000	1	-6.54122e-05
1	0	0	0	0	1	1188.64	-0.12	0.528163	-0.115713	-3.20771e-06	-0.000660977	0.00104905	-0.000660977	3	9.25441e-07	-4.91014e-07	6206.34	5174	0.000660977	0.000000000000000E+000	0.000660977	0.0000000E+000	1	-6.11154e-05
1	0	0	0	0	1	1190.54	-0.12	0.491497	-0.115561	-3.20981e-06	-0.000721939	0.000988087	-0.000721939	3	9.25441e-07	-5.22031e-07	6206.34	5233.93	0.000721939	0.000000000000000E+000	0.000721939	0.0000000E+000	1	-5.67977e-05
1	0	0	0	0	1	1192.44	-0.12	0.455516	-0.115217	-3.20739e-06	-0.000782913	0.000927112	-0.000782913	3	9.25441e-07	-5.50842e-07	6206.34	5292.49	0.000782913	0.000000000000000E+000	0.000782913	0.0000000E+000	1	-5.24832e-05
1	0	0	0	0	1	1194.34	-0.12	0.420163	-0.115675	-3.20691e-06	-0.000843847	0.000866178	-0.000843847	3	9.25441e-07	-5.77461e-07	6206.34	5349.28	0.000843847	0.000000000000000E+000	0.000843847	0.0000000E+000	1	-4.86023e-05
1	0	0	0	0	1	1196.24	-0.12	0.385468	-0.11495	-3.20738e-06	-0.00090479	0.000805235	-0.00090479	3	9.25441e-07	-6.01951e-07	6206.34	5405.38	0.00090479	0.000000000000000E+000	0.00090479	0.0000000E+000	1	-4.43095e-05
1	0	0	0	0	1	1198.14	-0.12	0.351475	-0.11598	-3.20598e-06	-0.000965732	0.000744293	-0.000965732	3	9.25441e-07	-6.24348e-07	6206.34	5461.37	0.000965732	0.000000000000000E+000	0.000965732	0.0000000E+000	1	-4.07642e-05
1	0	0	0	0	1	1200.04	-0.12	0.318248	-0.115255	-3.20663e-06	-0.00102667	0.000683354	-0.00102667	3	9.25441e-07	-6.44697e-07	6206.34	5517.97	0.00102667	0.000000000000000E+000	0.00102667	0.0000000E+000	1	-3.66797e-05
1	0	0	0	0	1	1201.94	-0.12	0.285739	-0.114568	-3.20956e-06	-0.00108762	0.000622407	-0.00108762	3	9.25441e-07	-6.63048e-07	6206.34	5574.97	0.00108762	0.000000000000000E+000	0.00108762	0.0000000E+000	1	-3.27367e-05
1	0	0	0	0	1	1203.84	-0.12	0.253749	-0.115828	-3.20888e-06	-0.00114858	0.000561441	-0.00114858	3	9.25441e-07	-6.79439e-07	6206.34	5630.99	0.00114858	0.000000000000000E+000	0.00114858	0.0000000E+000	1	-2.93912e-05
1	0	0	0	0	1	1205.74	-0.12	0.221987	-0.114835	-3.20821e-06	-0.00120956	0.000500466	-0.00120956	3	9.25441e-07	-6.93892e-07	6206.34	5684.06	0.00120956	0.000000000000000E+000	0.00120956	0.0000000E+000	1	-2.54919e-05
1	0	0	0	0	1	1207.64	-0.12	0.190186	-0.11579	-3.21071e-06	-0.00127053	0.000439494	-0.00127053	3	9.25441e-07	-7.06407e-07	6206.34	5732.61	0.00127053	0.000000000000000E+000	0.00127053	0.0000000E+000	1	-2.20215e-05
1	0	0	0	0	1	1209.54	-0.12	0.158293	-0.115522	-3.20955e-06	-0.00133151	0.000378514	-0.00133151	3	9.25441e-07	-7.16981e-07	6206.34	5776.84	0.00133151	0.000000000000000E+000	0.00133151	0.0000000E+000	1	-1.82864e-05
1	0	0	0	0	1	1211.44	-0.12	0.126374	-0.115255	-3.20948e-06	-0.0013925	0.000317522	-0.0013925	3	9.25441e-07	-7.2561e-07	6206.34	5817.66	0.0013925	0.000000000000000E+000	0.0013925	0.0000000E+000	1	-1.45652e-05
1	0	0	0	0	1	1213.34	-0.12	0.094556	-0.115064	-3.21035e-06	-0.00145349	0.000256537	-0.00145349	3	9.25441e-07	-7.32295e-07	6206.34	5856.21	0.00145349	0.000000000000000E+000	0.00145349	0.0000000E+000	1	-1.088e-05
1	0	0	0	0	1	1215.24	-0.12	0.0629594	-0.115904	-3.21279e-06	-0.00151452	0.000195509	-0.00151452	3	9.25441e-07	-7.37049e-07	6206.34	5893.68	0.00151452	0.000000000000000E+000	0.00151452	0.0000000E+000	1	-7.29725e-06
1	0	0	0	0	1	1217.14	-0.12	0.0317172	-0.115637	-3.21175e-06	-0.00157553	0.0001345	-0.00157553	3	9.25441e-07	-7.39885e-07	6206.34	5930.8	0.00157553	0.000000000000000E+000	0.00157553	0.0000000E+000	1	-3.66767e-06
1	0	0	0	0	1	1219.04	-0.12	0.000978704	-0.116057	-3.20927e-06	-0.00163651	7.352e-05	-0.00163651	3	9.25441e-07	-7.40829e-07	6206.34	5968.51	0.00163651	0.000000000000000E+000	0.00163651	0.0000000E+000	1	-1.13585e-07
1	1	0	1	0	0	1220.75	0.12	0.0562032	0.124304	3.45256e-06	5.8684e-05	0.000131948	5.8684e-05	4	2.07691e-09	0.000000000000000E+000	3806.1	0.000000000000000E+000	0.000000000000000E+000	5.8684e-05	5.8684e-05	0.0000000E+000	2	6.98625e-06
1	1	0	1	0	0	1222.65	0.12	0.101294	0.124189	3.45075e-06	0.000124267	0.00019753	0.000124267	4	7.33432e-09	0.000000000000000E+000	4447.03	0.000000000000000E+000	0.000000000000000E+000	0.000124267	0.000124267	0.0000000E+000	2	1.25797e-05
1	1	0	1	0	0	1224.55	0.12	0.144289	0.12396	3.45054e-06	0.000189826	0.000263089	0.000189826	4	1.54671e-08	0.000000000000000E+000	4759.13	0.000000000000000E+000	0.000000000000000E+000	0.000189826	0.000189826	0.0000000E+000	2	1.78861e-05
1	1	0	1	0	0	1226.45	0.12	0.185821	0.123998	3.45124e-06	0.000255396	0.000328659	0.000255396	4	2.63687e-08	0.000000000000000E+000	4966.54	0.000000000000000E+000	0.000000000000000E+000	0.000255396	0.000255396	0.0000000E+000	2	2.30415e-05
1	1	0	1	0	0	1228.35	0.12	0.226023	0.124723	3.44979e-06	0.000320963	0.000394227	0.000320963	4	3.99476e-08	0.000000000000000E+000	5127.98	0.000000000000000E+000	0.000000000000000E+000	0.000320963	0.000320963	0.0000000E+000	2	2.81904e-05
1	1	0	1	0	0	1230.25	0.12	0.265043	0.12396	3.45228e-06	0.000386518	0.000459782	0.000386518	4	5.61166e-08	0.000000000000000E+000	5263.8	0.000000000000000E+000	0.000000000000000E+000	0.000386518	0.000386518	0.0000000E+000	2	3.28547e-05
1	1	0	1	0	0	1232.15	0.12	0.303329	0.124533	3.4499e-06	0.000452087	0.000525351	0.000452087	4	7.48189e-08	0.000000000000000E+000	5377.87	0.000000000000000E+000	0.000000000000000E+000	0.000452087	0.000452087	0.0000000E+000	2	3.77743e-05
1	1	0	1	0	0	1234.05	0.12	0.341489	0.123388	3.44955e-06	0.000517621	0.000590885	0.000517621	4	9.60129e-08	0.000000000000000E+000	5467.95	0.000000000000000E+000	0.000000000000000E+000	0.000517621	0.000517621	0.0000000E+000	2	4.21355e-05
1	1	0	1	0	0	1235.95	0.12	0.379906	0.124494	3.45359e-06	0.000583199	0.000656462	0.000583199	4	1.19731e-07	0.000000000000000E+000	5536.56	0.000000000000000E+000	0.000000000000000E+000	0.000583199	0.000583199	0.0000000E+000	2	4.72962e-05
1	1	0	1	0	0	1237.85	0.12	0.418596	0.124838	3.45202e-06	0.000648783	0.000722047	0.000648783	4	1.45981e-07	0.000000000000000E+000	5588.95	0.000000000000000E+000	0.000000000000000E+000	0.000648783	0.000648783	0.0000000E+000	2	5.22566e-05
1	1	0	1	0	0	1239.75	0.12	0.457453	0.12438	3.45062e-06	0.000714367	0.00078763	0.000714367	4	1.74775e-07	0.000000000000000E+000	5630.4	0.000000000000000E+000	0.000000000000000E+000	0.000714367	0.000714367	0.0000000E+000	2	5.6898e-05
1	1	0	1	0	0	1241.65	0.12	0.496345	0.123846	3.45012e-06	0.000779938	0.000853202	0.000779938	4	2.06112e-07	0.000000000000000E+000	5664.86	0.000000000000000E+000	0.000000000000000E+000	0.000779938	0.000779938	0.0000000E+000	2	6.14702e-05
1	1	0	1	0	0	1243.55	0.12	0.535226	0.12438	3.45047e-06	0.000845486	0.00091875	0.000845486	4	2.39988e-07	0.000000000000000E+000	5694.26	0.000000000000000E+000	0.000000000000000E+000	0.000845486	0.000845486	0.0000000E+000	2	6.65713e-05
1	1	0	1	0	0	1245.45	0.12	0.574068	0.124265	3.45045e-06	0.000911043	0.000984307	0.000911043	4	2.76417e-07	0.000000000000000E+000	5720.12	0.000000000000000E+000	0.000000000000000E+000	0.000911043	0.000911043	0.0000000E+000	2	7.13368e-05
1	1	0	1	0	0	1247.35	0.12	0.612766	0.124647	3.4531e-06	0.000976632	0.0010499	0.000976632	4	3.15406e-07	0.000000000000000E+000	5744.24	0.000000000000000E+000	0.000000000000000E+000	0.000976632	0.000976632	0.0000000E+000	2	7.63794e-05
1	1	0	1	0	0	1249.25	0.12	0.651196	0.123884	3.45297e-06	0.00104224	0.0011155	0.00104224	4	3.56935e-07	0.000000000000000E+000	5767.96	0.000000000000000E+000	0.000000000000000E+000	0.00104224	0.00104224	0.0000000E+000	2	8.06726e-05
1	1	0	1	0	0	1251.15	0.12	0.689246	0.124418	3.4536e-06	0.00110785	0.00118112	0.00110785	4	4.00981e-07	0.000000000000000E+000	5792.28	0.000000000000000E+000	0.000000000000000E+000	0.00110785	0.00110785	0.0000000E+000	2	8.57547e-05
1	1	0	1	0	0	1253.05	0.12	0.726794	0.124571	3.45384e-06	0.00117345	0.00124671	0.00117345	4	4.47493e-07	0.000000000000000E+000	5817.98	0.000000000000000E+000	0.000000000000000E+000	0.00117345	0.00117345	0.0000000E+000	2	9.05372e-05
1	1	0	1	0	0	1254.95	0.12	0.763756	0.12396	3.45374e-06	0.00123906	0.00131232	0.00123906	4	4.96453e-07	0.000000000000000E+000	5845.68	0.000000000000000E+000	0.000000000000000E+000	0.00123906	0.00123906	0.0000000E+000	2	9.46752e-05
1	1	0	1	0	0	1256.85	0.12	0.799991	0.124418	3.45099e-06	0.00130465	0.00137791	0.00130465	4	5.47808e-07	0.000000000000000E+000	5876.12	0.000000000000000E+000	0.000000000000000E+000	0.00130465	0.00130465	0.0000000E+000	2	9.95333e-05
1	1	0	1	0	0	1258.75	0.12	0.835348	0.124533	3.45123e-06	0.00137022	0.00144349	0.00137022	4	6.0149e-07	0.000000000000000E+000	5910.02	0.000000000000000E+000	0.000000000000000E+000	0.00137022	0.00137022	0.0000000E+000	2	0.000104028
1	1	0	1	0	0	1260.65	0.12	0.86965	0.123693	3.45118e-06	0.0014358	0.00150906	0.0014358	4	6.5746e-07	0.000000000000000E+000	5948.4	0.000000000000000E+000	0.000000000000000E+000	0.0014358	0.0014358	0.0000000E+000	2	0.000107569
1	1	0	1	0	0	1262.55	0.12	0.902675	0.124075	3.4518e-06	0.00150137	0.00157463	0.00150137	4	7.15627e-07	0.000000000000000E+000	5992.3	0.000000000000000E+000	0.000000000000000E+000	0.00150137	0.00150137	0.0000000E+000	2	0.000111999
1	1	0	1	0	0	1264.45	0.12	0.93412	0.124761	3.452e-06	0.00156694	0.0016402	0.00156694	4	7.75913e-07	0.000000000000000E+000	6043.33	0.000000000000000E+000	0.000000000000000E+000	0.00156694	0.00156694	0.0000000E+000	2	0.000116542
1	1	0	1	0	0	1266.35	0.12	0.963694	0.124723	3.45048e-06	0.0016325	0.00170577	0.0016325	4	8.3819e-07	0.000000000000000E+000	6102.84	0.000000000000000E+000	0.000000000000000E+000	0.0016325	0.0016325	0.0000000E+000	2	0.000120195
1	1	0	1	0	0	1268.25	0.12	0.991025	0.124876	3.45099e-06	0.00169805	0.00177131	0.00169805	4	9.02311e-07	0.000000000000000E+000	6172.68	0.000000000000000E+000	0.000000000000000E+000	0.00169805	0.00169805	0.0000000E+000	2	0.000123755
1	0	0	0	0	0	1269.96	-0.12	0.953906	-0.115599	-3.20969e-06	-3.52957e-05	0.00175696	-3.52957e-05	5	9.23172e-07	-3.42265e-08	6193.53	3724.4	3.52957e-05	0.000000000000000E+000	3.52957e-05	0.0000000E+000	2	-0.00011027
1	0	0	0	0	0	1271.86	-0.12	0.904404	-0.115675	-3.20998e-06	-9.62748e-05	0.00169598	-9.62748e-05	5	9.23172e-07	-9.07709e-08	6193.53	4144.85	9.62748e-05	0.000000000000000E+000	9.62748e-05	0.0000000E+000	2	-0.000104617
1	0	0	0	0	0	1273.76	-0.12	0.859135	-0.115179	-3.20682e-06	-0.00015723	0.00163502	-0.00015723	5	9.23172e-07	-1.44434e-07	6193.53	4391.59	0.00015723	0.000000000000000E+000	0.00015723	0.0000000E+000	2	-9.89542e-05
1	0	0	0	0	0	1275.66	-0.12	0.815776	-0.11579	-3.20732e-06	-0.000218169	0.00157409	-0.000218169	5	9.23172e-07	-1.95391e-07	6193.53	4559.74	0.000218169	0.000000000000000E+000	0.000218169	0.0000000E+000	2	-9.44583e-05
1	0	0	0	0	0	1277.56	-0.12	0.773641	-0.115064	-3.20729e-06	-0.00027911	0.00151314	-0.00027911	5	9.23172e-07	-2.43749e-07	6193.53	4686.91	0.00027911	0.000000000000000E+000	0.00027911	0.0000000E+000	2	-8.90185e-05
1	0	0	0	0	0	1279.46	-0.12	0.73247	-0.116324	-3.20518e-06	-0.000340034	0.00145222	-0.000340034	5	9.23172e-07	-2.89557e-07	6193.53	4790.06	0.000340034	0.000000000000000E+000	0.000340034	0.0000000E+000	2	-8.52037e-05
1	0	0	0	0	0	1281.36	-0.12	0.692128	-0.11537	-3.20769e-06	-0.000400958	0.0013913	-0.000400958	5	9.23172e-07	-3.32885e-07	6193.53	4878.22	0.000400958	0.000000000000000E+000	0.000400958	0.0000000E+000	2	-7.98506e-05
1	0	0	0	0	0	1283.26	-0.12	0.6525	-0.115255	-3.20876e-06	-0.000461926	0.00133033	-0.000461926	5	9.23172e-07	-3.73807e-07	6193.53	4956.21	0.000461926	0.000000000000000E+000	0.000461926	0.0000000E+000	2	-7.5204e-05
1	0	0	0	0	0	1285.16	-0.12	0.613598	-0.115522	-3.20848e-06	-0.000522876	0.00126938	-0.000522876	5	9.23172e-07	-4.12326e-07	6193.53	5027.29	0.000522876	0.000000000000000E+000	0.000522876	0.0000000E+000	2	-7.08842e-05
1	0	0	0	0	0	1287.06	-0.12	0.575384	-0.115484	-3.20859e-06	-0.000583825	0.00120843	-0.000583825	5	9.23172e-07	-4.48495e-07	6193.53	5093.47	0.000583825	0.000000000000000E+000	0.000583825	0.0000000E+000	2	-6.64478e-05
1	0	0	0	0	0	1288.96	-0.12	0.537862	-0.115408	-3.20784e-06	-0.000644777	0.00114748	-0.000644777	5	9.23172e-07	-4.82358e-07	6193.53	5156.35	0.000644777	0.000000000000000E+000	0.000644777	0.0000000E+000	2	-6.20735e-05
1	0	0	0	0	0	1290.86	-0.12	0.50101	-0.115599	-3.20884e-06	-0.000705761	0.00108649	-0.000705761	5	9.23172e-07	-5.13974e-07	6193.53	5216.97	0.000705761	0.000000000000000E+000	0.000705761	0.0000000E+000	2	-5.79161e-05
1	0	0	0	0	0	1292.76	-0.12	0.464826	-0.11537	-3.2093e-06	-0.00076673	0.00102552	-0.00076673	5	9.23172e-07	-5.43356e-07	6193.53	5275.69	0.00076673	0.000000000000000E+000	0.00076673	0.0000000E+000	2	-5.36269e-05
1	0	0	0	0	0	1294.66	-0.12	0.429283	-0.115141	-3.20925e-06	-0.000827718	0.000964536	-0.000827718	5	9.23172e-07	-5.7056e-07	6193.53	5333.03	0.000827718	0.000000000000000E+000	0.000827718	0.0000000E+000	2	-4.9428e-05
1	0	0	0	0	0	1296.56	-0.12	0.394389	-0.115522	-3.20829e-06	-0.000888669	0.000903585	-0.000888669	5	9.23172e-07	-5.95603e-07	6193.53	5389.18	0.000888669	0.000000000000000E+000	0.000888669	0.0000000E+000	2	-4.55608e-05
1	0	0	0	0	0	1298.46	-0.12	0.360171	-0.115904	-3.20957e-06	-0.000949633	0.000842621	-0.000949633	5	9.23172e-07	-6.18545e-07	6193.53	5445.02	0.000949633	0.000000000000000E+000	0.000949633	0.0000000E+000	2	-4.17453e-05
1	0	0	0	0	0	1300.36	-0.12	0.326701	-0.115408	-3.20885e-06	-0.0010106	0.000781655	-0.0010106	5	9.23172e-07	-6.39425e-07	6193.53	5501.32	0.0010106	0.000000000000000E+000	0.0010106	0.0000000E+000	2	-3.77038e-05
1	0	0	0	0	0	1302.26	-0.12	0.293934	-0.115332	-3.21036e-06	-0.00107156	0.000720691	-0.00107156	5	9.23172e-07	-6.58287e-07	6193.53	5557.81	0.00107156	0.000000000000000E+000	0.00107156	0.0000000E+000	2	-3.38998e-05
1	0	0	0	0	0	1304.16	-0.12	0.261772	-0.115293	-3.21094e-06	-0.00113256	0.000659694	-0.00113256	5	9.23172e-07	-6.75181e-07	6193.53	5614.04	0.00113256	0.000000000000000E+000	0.00113256	0.0000000E+000	2	-3.01806e-05
1	0	0	0	0	0	1306.06	-0.12	0.229899	-0.115408	-3.20812e-06	-0.00119354	0.000598715	-0.00119354	5	9.23172e-07	-6.9012e-07	6193.53	5667.58	0.00119354	0.000000000000000E+000	0.00119354	0.0000000E+000	2	-2.65322e-05
1	0	0	0	0	0	1307.96	-0.12	0.198069	-0.115064	-3.20892e-06	-0.00125452	0.000537736	-0.00125452	5	9.23172e-07	-7.03118e-07	6193.53	5717.11	0.00125452	0.000000000000000E+000	0.00125452	0.0000000E+000	2	-2.27907e-05
1	0	0	0	0	0	1309.86	-0.12	0.166137	-0.116133	-3.21014e-06	-0.00131552	0.000476737	-0.00131552	5	9.23172e-07	-7.14175e-07	6193.53	5762.17	0.00131552	0.000000000000000E+000	0.00131552	0.0000000E+000	2	-1.9294e-05
1	0	0	0	0	0	1311.76	-0.12	0.134182	-0.115064	-3.20891e-06	-0.00137651	0.000415744	-0.00137651	5	9.23172e-07	-7.23283e-07	6193.53	5803.69	0.00137651	0.000000000000000E+000	0.00137651	0.0000000E+000	2	-1.54396e-05
1	0	0	0	0	0	1313.66	-0.12	0.102318	-0.115675	-3.21059e-06	-0.00143748	0.00035477	-0.00143748	5	9.23172e-07	-7.30441e-07	6193.53	5842.72	0.00143748	0.000000000000000E+000	0.00143748	0.0000000E+000	2	-1.18356e-05
1	0	0	0	0	0	1315.56	-0.12	0.0705922	-0.115446	-3.21459e-06	-0.00149853	0.000293722	-0.00149853	5	9.23172e-07	-7.35667e-07	6193.53	5880.23	0.00149853	0.000000000000000E+000	0.00149853	0.0000000E+000	2	-8.14959e-06
1	0	0	0	0	0	1317.46	-0.12	0.0392094	-0.115866	-3.21263e-06	-0.00155959	0.000232662	-0.00155959	5	9.23172e-07	-7.38966e-07	6193.53	5917.41	0.00155959	0.000000000000000E+000	0.00155959	0.0000000E+000	2	-4.54303e-06
1	0	0	0	0	0	1319.36	-0.12	0.00828117	-0.116019	-3.21361e-06	-0.00162064	0.000171618	-0.00162064	5	9.23172e-07	-7.40363e-07	6193.53	5954.91	0.00162064	0.000000000000000E+000	0.00162064	0.0000000E+000	2	-9.60769e-07
1	1	0	1	0	1	1321.12	0.12	0.0462187	0.123998	3.44995e-06	4.48356e-05	0.000201708	4.48356e-05	6	1.35072e-09	0.000000000000000E+000	3543.51	0.000000000000000E+000	0.000000000000000E+000	4.48356e-05	4.48356e-05	0.0000000E+000	3	5.73104e-06
1	1	0	1	0	1	1323.02	0.12	0.0919547	0.124342	3.44968e-06	0.000110373	0.000267246	0.000110373	6	5.97631e-09	0.000000000000000E+000	4352.72	0.000000000000000E+000	0.000000000000000E+000	0.000110373	0.000110373	0.0000000E+000	3	1.14338e-05
1	1	0	1	0	1	1324.92	0.12	0.135307	0.125029	3.44971e-06	0.000175914	0.000332787	0.000175914	6	1.35077e-08	0.000000000000000E+000	4703.62	0.000000000000000E+000	0.000000000000000E+000	0.000175914	0.000175914	0.0000000E+000	3	1.69173e-05
1	1	0	1	0	1	1326.82	0.12	0.17713	0.124265	3.44616e-06	0.000241412	0.000398284	0.000241412	6	2.3819e-08	0.000000000000000E+000	4925.05	0.000000000000000E+000	0.000000000000000E+000	0.000241412	0.000241412	0.0000000E+000	3	2.20111e-05
1	1	0	1	0	1	1328.72	0.12	0.217657	0.124342	3.44631e-06	0.000306909	0.000463782	0.000306909	6	3.68248e-08	0.000000000000000E+000	5091.84	0.000000000000000E+000	0.000000000000000E+000	0.000306909	0.000306909	0.0000000E+000	3	2.70639e-05
1	1	0	1	0	1	1330.62	0.12	0.25698	0.124304	3.44953e-06	0.000372429	0.000529301	0.000372429	6	5.24471e-08	0.000000000000000E+000	5230.92	0.000000000000000E+000	0.000000000000000E+000	0.000372429	0.000372429	0.0000000E+000	3	3.19435e-05
1	1	0	1	0	1	1332.52	0.12	0.295474	0.123884	3.4501e-06	0.000437973	0.000594846	0.000437973	6	7.06211e-08	0.000000000000000E+000	5348.27	0.000000000000000E+000	0.000000000000000E+000	0.000437973	0.000437973	0.0000000E+000	3	3.66045e-05
1	1	0	1	0	1	1334.42	0.12	0.333729	0.123998	3.44774e-06	0.000503511	0.000660383	0.000503511	6	9.13053e-08	0.000000000000000E+000	5442.37	0.000000000000000E+000	0.000000000000000E+000	0.000503511	0.000503511	0.0000000E+000	3	4.13818e-05
1	1	0	1	0	1	1336.32	0.12	0.372179	0.123846	3.45107e-06	0.000569063	0.000725935	0.000569063	6	1.14507e-07	0.000000000000000E+000	5514.32	0.000000000000000E+000	0.000000000000000E+000	0.000569063	0.000569063	0.0000000E+000	3	4.60927e-05
1	1	0	1	0	1	1338.22	0.12	0.410877	0.123998	3.4499e-06	0.000634608	0.00079148	0.000634608	6	1.40235e-07	0.000000000000000E+000	5569.34	0.000000000000000E+000	0.000000000000000E+000	0.000634608	0.000634608	0.0000000E+000	3	5.0948e-05
1	1	0	1	0	1	1340.12	0.12	0.449751	0.123807	3.45096e-06	0.000700143	0.000857016	0.000700143	6	1.68502e-07	0.000000000000000E+000	5612.59	0.000000000000000E+000	0.000000000000000E+000	0.000700143	0.000700143	0.0000000E+000	3	5.56824e-05
1	1	0	1	0	1	1342.02	0.12	0.488653	0.124265	3.44908e-06	0.000765662	0.000922535	0.000765662	6	1.9931e-07	0.000000000000000E+000	5648.5	0.000000000000000E+000	0.000000000000000E+000	0.000765662	0.000765662	0.0000000E+000	3	6.07227e-05
1	1	0	1	0	1	1343.92	0.12	0.527576	0.124304	3.44891e-06	0.000831184	0.000988056	0.000831184	6	2.3267e-07	0.000000000000000E+000	5678.91	0.000000000000000E+000	0.000000000000000E+000	0.000831184	0.000831184	0.0000000E+000	3	6.55796e-05
1	1	0	1	0	1	1345.82	0.12	0.56648	0.124494	3.45069e-06	0.000896728	0.0010536	0.000896728	6	2.68591e-07	0.000000000000000E+000	5705.47	0.000000000000000E+000	0.000000000000000E+000	0.000896728	0.000896728	0.0000000E+000	3	7.05235e-05
1	1	0	1	0	1	1347.72	0.12	0.605254	0.12354	3.44876e-06	0.000962278	0.00111915	0.000962278	6	3.07063e-07	0.000000000000000E+000	5729.87	0.000000000000000E+000	0.000000000000000E+000	0.000962278	0.000962278	0.0000000E+000	3	7.47733e-05
1	1	0	1	0	1	1349.62	0.12	0.643786	0.124609	3.44814e-06	0.00102782	0.00118469	0.00102782	6	3.48062e-07	0.000000000000000E+000	5753.45	0.000000000000000E+000	0.000000000000000E+000	0.00102782	0.00102782	0.0000000E+000	3	8.02214e-05
1	1	0	1	0	1	1351.52	0.12	0.681951	0.123578	3.44685e-06	0.00109334	0.00125022	0.00109334	6	3.91564e-07	0.000000000000000E+000	5777.39	0.000000000000000E+000	0.000000000000000E+000	0.00109334	0.00109334	0.0000000E+000	3	8.42744e-05
1	1	0	1	0	1	1353.42	0.12	0.719639	0.123922	3.45092e-06	0.00115886	0.00131573	0.00115886	6	4.37542e-07	0.000000000000000E+000	5802.57	0.000000000000000E+000	0.000000000000000E+000	0.00115886	0.00115886	0.0000000E+000	3	8.91791e-05
1	1	0	1	0	1	1355.32	0.12	0.756769	0.124418	3.44893e-06	0.00122437	0.00138124	0.00122437	6	4.85971e-07	0.000000000000000E+000	5829.55	0.000000000000000E+000	0.000000000000000E+000	0.00122437	0.00122437	0.0000000E+000	3	9.41557e-05
1	1	0	1	0	1	1357.22	0.12	0.793237	0.124304	3.45089e-06	0.00128993	0.0014468	0.00128993	6	5.36847e-07	0.000000000000000E+000	5859.1	0.000000000000000E+000	0.000000000000000E+000	0.00128993	0.00128993	0.0000000E+000	3	9.86022e-05
1	1	0	1	0	1	1359.12	0.12	0.828838	0.124342	3.44662e-06	0.00135543	0.00151231	0.00135543	6	5.90041e-07	0.000000000000000E+000	5891.98	0.000000000000000E+000	0.000000000000000E+000	0.00135543	0.00135543	0.0000000E+000	3	0.000103059
1	1	0	1	0	1	1361.02	0.12	0.863424	0.124533	3.44858e-06	0.00142094	0.00157782	0.00142094	6	6.45537e-07	0.000000000000000E+000	5929.13	0.000000000000000E+000	0.000000000000000E+000	0.00142094	0.00142094	0.0000000E+000	3	0.000107524
1	1	0	1	0	1	1362.92	0.12	0.896799	0.123884	3.44673e-06	0.00148644	0.00164332	0.00148644	6	7.03251e-07	0.000000000000000E+000	5971.45	0.000000000000000E+000	0.000000000000000E+000	0.00148644	0.00148644	0.0000000E+000	3	0.000111099
1	1	0	1	0	1	1364.82	0.12	0.928685	0.124036	3.44786e-06	0.00155196	0.00170883	0.00155196	6	7.63108e-07	0.000000000000000E+000	6020.41	0.000000000000000E+000	0.000000000000000E+000	0.00155196	0.00155196	0.0000000E+000	3	0.000115191
1	1	0	1	0	1	1366.72	0.12	0.958738	0.124036	3.44685e-06	0.00161745	0.00177432	0.00161745	6	8.24976e-07	0.000000000000000E+000	6077.65	0.000000000000000E+000	0.000000000000000E+000	0.00161745	0.00161745	0.0000000E+000	3	0.000118918
1	1	0	1	0	1	1368.62	0.12	0.986688	0.123769	3.44985e-06	0.00168296	0.00183983	0.00168296	6	8.88761e-07	0.000000000000000E+000	6144.55	0.000000000000000E+000	0.000000000000000E+000	0.00168296	0.00168296	0.0000000E+000	3	0.000122122
1	0	0	0	0	1	1370.33	-0.12	0.962752	-0.115561	-3.21311e-06	-2.56888e-05	0.00184566	-2.56888e-05	7	9.20084e-07	-2.50371e-08	6177.12	3651.25	2.56888e-05	0.000000000000000E+000	2.56888e-05	0.0000000E+000	3	-0.000111256
1	0	0	0	0	1	1372.23	-0.12	0.911934	-0.115637	-3.2119e-06	-8.67278e-05	0.00178462	-8.67278e-05	7	9.20084e-07	-8.21248e-08	6177.12	4100.23	8.67278e-05	0.000000000000000E+000	8.67278e-05	0.0000000E+000	3	-0.000105453
1	0	0	0	0	1	1374.13	-0.12	0.866217	-0.114988	-3.21223e-06	-0.000147752	0.00172359	-0.000147752	7	9.20084e-07	-1.36292e-07	6177.12	4364.78	0.000147752	0.000000000000000E+000	0.000147752	0.0000000E+000	3	-9.96047e-05
1	0	0	0	0	1	1376.03	-0.12	0.822555	-0.115599	-3.21002e-06	-0.000208762	0.00166258	-0.000208762	7	9.20084e-07	-1.8773e-07	6177.12	4540.31	0.000208762	0.000000000000000E+000	0.000208762	0.0000000E+000	3	-9.50863e-05
1	0	0	0	0	1	1377.93	-0.12	0.780187	-0.116248	-3.20936e-06	-0.000269761	0.00160158	-0.000269761	7	9.20084e-07	-2.3654e-07	6177.12	4671.32	0.000269761	0.000000000000000E+000	0.000269761	0.0000000E+000	3	-9.06948e-05
1	0	0	0	0	1	1379.83	-0.12	0.738811	-0.115332	-3.2093e-06	-0.000330746	0.0015406	-0.000330746	7	9.20084e-07	-2.82787e-07	6177.12	4776.69	0.000330746	0.000000000000000E+000	0.000330746	0.0000000E+000	3	-8.52083e-05
1	0	0	0	0	1	1381.73	-0.12	0.698272	-0.115332	-3.20998e-06	-0.000391725	0.00147962	-0.000391725	7	9.20084e-07	-3.26534e-07	6177.12	4865.99	0.000391725	0.000000000000000E+000	0.000391725	0.0000000E+000	3	-8.05328e-05
1	0	0	0	0	1	1383.63	-0.12	0.658483	-0.115332	-3.21143e-06	-0.000452742	0.0014186	-0.000452742	7	9.20084e-07	-3.67859e-07	6177.12	4945.01	0.000452742	0.000000000000000E+000	0.000452742	0.0000000E+000	3	-7.59439e-05
1	0	0	0	0	1	1385.53	-0.12	0.619415	-0.115446	-3.20996e-06	-0.000513763	0.00135758	-0.000513763	7	9.20084e-07	-4.06782e-07	6177.12	5016.85	0.000513763	0.000000000000000E+000	0.000513763	0.0000000E+000	3	-7.1509e-05
1	0	0	0	0	1	1387.43	-0.12	0.581046	-0.115599	-3.21094e-06	-0.000574778	0.00129657	-0.000574778	7	9.20084e-07	-4.4334e-07	6177.12	5083.59	0.000574778	0.000000000000000E+000	0.000574778	0.0000000E+000	3	-6.71682e-05
1	0	0	0	0	1	1389.33	-0.12	0.543375	-0.115828	-3.20966e-06	-0.00063577	0.00123558	-0.00063577	7	9.20084e-07	-4.77566e-07	6177.12	5146.69	0.00063577	0.000000000000000E+000	0.00063577	0.0000000E+000	3	-6.29378e-05
1	0	0	0	0	1	1391.23	-0.12	0.506385	-0.115179	-3.21168e-06	-0.000696767	0.00117458	-0.000696767	7	9.20084e-07	-5.0952e-07	6177.12	5207.34	0.000696767	0.000000000000000E+000	0.000696767	0.0000000E+000	3	-5.83249e-05
1	0	0	0	0	1	1393.13	-0.12	0.470058	-0.116019	-3.21094e-06	-0.000757769	0.00111358	-0.000757769	7	9.20084e-07	-5.39241e-07	6177.12	5266.11	0.000757769	0.000000000000000E+000	0.000757769	0.0000000E+000	3	-5.45355e-05
1	0	0	0	0	1	1395.03	-0.12	0.434391	-0.11537	-3.20807e-06	-0.00081876	0.00105258	-0.00081876	7	9.20084e-07	-5.66762e-07	6177.12	5323.43	0.00081876	0.000000000000000E+000	0.00081876	0.0000000E+000	3	-5.01156e-05
1	0	0	0	0	1	1396.93	-0.12	0.399373	-0.115904	-3.21037e-06	-0.000879708	0.000991637	-0.000879708	7	9.20084e-07	-5.92111e-07	6177.12	5379.48	0.000879708	0.000000000000000E+000	0.000879708	0.0000000E+000	3	-4.62889e-05
1	0	0	0	0	1	1398.83	-0.12	0.365001	-0.114759	-3.21084e-06	-0.000940708	0.000930637	-0.000940708	7	9.20084e-07	-6.15365e-07	6177.12	5435.16	0.000940708	0.000000000000000E+000	0.000940708	0.0000000E+000	3	-4.18872e-05
1	0	0	0	0	1	1400.73	-0.12	0.331359	-0.116057	-3.20901e-06	-0.00100167	0.000869671	-0.00100167	7	9.20084e-07	-6.36534e-07	6177.12	5490.93	0.00100167	0.000000000000000E+000	0.00100167	0.0000000E+000	3	-3.84564e-05
1	0	0	0	0	1	1402.63	-0.12	0.298452	-0.114988	-3.20859e-06	-0.00106266	0.00080869	-0.00106266	7	9.20084e-07	-6.55682e-07	6177.12	5547.26	0.00106266	0.000000000000000E+000	0.00106266	0.0000000E+000	3	-3.43184e-05
1	0	0	0	0	1	1404.53	-0.12	0.26615	-0.115866	-3.2119e-06	-0.00112365	0.000747695	-0.00112365	7	9.20084e-07	-6.72846e-07	6177.12	5603.21	0.00112365	0.000000000000000E+000	0.00112365	0.0000000E+000	3	-3.08377e-05
1	0	0	0	0	1	1406.43	-0.12	0.234194	-0.115866	-3.21084e-06	-0.00118465	0.000686698	-0.00118465	7	9.20084e-07	-6.88054e-07	6177.12	5656.97	0.00118465	0.000000000000000E+000	0.00118465	0.0000000E+000	3	-2.7135e-05
1	0	0	0	0	1	1408.33	-0.12	0.202323	-0.115332	-3.20808e-06	-0.00124563	0.000625714	-0.00124563	7	9.20084e-07	-7.01313e-07	6177.12	5706.92	0.00124563	0.000000000000000E+000	0.00124563	0.0000000E+000	3	-2.33342e-05
1	0	0	0	0	1	1410.23	-0.12	0.170389	-0.115675	-3.21149e-06	-0.0013066	0.000564743	-0.0013066	7	9.20084e-07	-7.12625e-07	6177.12	5752.48	0.0013066	0.000000000000000E+000	0.0013066	0.0000000E+000	3	-1.97097e-05
1	0	0	0	0	1	1412.13	-0.12	0.138385	-0.116095	-3.21186e-06	-0.00136762	0.000503722	-0.00136762	7	9.20084e-07	-7.21994e-07	6177.12	5794.35	0.00136762	0.000000000000000E+000	0.00136762	0.0000000E+000	3	-1.60657e-05
1	0	0	0	0	1	1414.03	-0.12	0.106465	-0.115332	-3.21016e-06	-0.00142863	0.000442713	-0.00142863	7	9.20084e-07	-7.29411e-07	6177.12	5833.68	0.00142863	0.000000000000000E+000	0.00142863	0.0000000E+000	3	-1.22787e-05
1	0	0	0	0	1	1415.93	-0.12	0.0747297	-0.115522	-3.20918e-06	-0.0014896	0.000381746	-0.0014896	7	9.20084e-07	-7.34882e-07	6177.12	5871.29	0.0014896	0.000000000000000E+000	0.0014896	0.0000000E+000	3	-8.63295e-06
1	0	0	0	0	1	1417.83	-0.12	0.0433313	-0.115522	-3.20844e-06	-0.00155055	0.00032079	-0.00155055	7	9.20084e-07	-7.38428e-07	6177.12	5908.43	0.00155055	0.000000000000000E+000	0.00155055	0.0000000E+000	3	-5.00573e-06
1	0	0	0	0	1	1419.73	-0.12	0.0122886	-0.116057	-3.21353e-06	-0.00161157	0.000259779	-0.00161157	7	9.20084e-07	-7.40073e-07	6177.12	5945.55	0.00161157	0.000000000000000E+000	0.00161157	0.0000000E+000	3	-1.42617e-06
1	0	0	0	0	1	1420.44	-0.12	0.000124789	-0.115713	-1.92796e-07	-0.00163425	0.000237093	-0.00163425	7	9.20084e-07	-7.40204e-07	6177.12	5955.02	0.00163425	0.000000000000000E+000	0.00163425	95.321	3	-1.44397e-08